<?xml version="1.0" encoding="UTF-8"?><CareTeam xmlns="http://hl7.org/fhir"><id value="example"/><meta><tag><system value="http://terminology.hl7.org/CodeSystem/v3-ActReason"/><code value="HTEST"/><display value="AbBkrv7drHJn"/></tag></meta><text><status value="generated"/><div xmlns="http://www.w3.org/1999/xhtml">Care Team</div></text><contained><Practitioner><id value="pr1"/><name><family value="Dietician"/><given value="Dorothy"/></name></Practitioner></contained><identifier><value value="88ABKoSMNml5"/></identifier><status value="active"/><category><coding><system value="http://loinc.org"/><code value="LA27976-2"/><display value="kMzFheDai2gtR9iT"/></coding></category><name value="Peter James Charlmers Care Plan for Inpatient Encounter"/><subject><reference value="Patient/example"/><display value="gmDWI9ewsW2C"/></subject><encounter><reference value="Encounter/example"/></encounter><period><end value="2013-01-01"/></period><participant><role><text value="NpC6TIpc2bH4BJ5g"/></role><member><reference value="Patient/example"/><display value="4FOjJLlvrxVMTNV"/></member></participant><participant><role><text value="UhiiTTJc01kiTQd"/></role><member><reference value="#pr1"/><display value="9FgIcR4khSHNA"/></member><onBehalfOf><reference value="Organization/f001"/></onBehalfOf><period><end value="2013-01-01"/></period></participant><managingOrganization><reference value="Organization/f001"/></managingOrganization></CareTeam>