<?xml version="1.0" encoding="UTF-8"?><DocumentReference xmlns="http://hl7.org/fhir"><id value="example"/><meta><tag><system value="http://terminology.hl7.org/CodeSystem/v3-ActReason"/><code value="HTEST"/><display value="KT4czMdrUWGRlSS"/></tag></meta><text><status value="generated"/><div xmlns="http://www.w3.org/1999/xhtml"><p><b>Generated Narrative with Details</b></p><p><b>id</b>: example</p><p><b>contained</b>: </p><p><b>masterIdentifier</b>: urn:oid:1.3.6.1.4.1.21367.2005.3.7</p><p><b>identifier</b>: urn:oid:1.3.6.1.4.1.21367.2005.3.7.1234</p><p><b>status</b>: current</p><p><b>docStatus</b>: preliminary</p><p><b>type</b>: Outpatient Note <span>(Details : {LOINC code '34108-1' = 'Outpatient Note', given as 'Outpatient Note'})</span></p><p><b>category</b>: History and Physical <span>(Details : {http://ihe.net/xds/connectathon/classCodes code 'History and Physical' = 'History and Physical', given as 'History and Physical'})</span></p><p><b>subject</b>: <a>Patient/xcda</a></p><p><b>date</b>: 24/12/2005 9:43:41 AM</p><p><b>author</b>: </p><ul><li><a>Practitioner/xcda1</a></li><li>id: a2; Gerald Smitty </li></ul><p><b>authenticator</b>: <a>Organization/f001</a></p><p><b>custodian</b>: <a>Organization/f001</a></p><h3>RelatesTos</h3><table><tr><td>-</td><td><b>Code</b></td><td><b>Target</b></td></tr><tr><td>*</td><td>appends</td><td><a>DocumentReference/example</a></td></tr></table><p><b>description</b>: Physical</p><p><b>securityLabel</b>: very restricted <span>(Details : {http://terminology.hl7.org/CodeSystem/v3-Confidentiality code 'V' = 'very restricted', given as 'very restricted'})</span></p><h3>Contents</h3><table><tr><td>-</td><td><b>Attachment</b></td><td><b>Format</b></td></tr><tr><td>*</td><td/><td>History and Physical Specification (Details: urn:oid:1.3.6.1.4.1.19376.1.2.3 code urn:ihe:pcc:handp:2008 = 'urn:ihe:pcc:handp:2008', stated as 'History and Physical Specification')</td></tr></table><h3>Contexts</h3><table><tr><td>-</td><td><b>Encounter</b></td><td><b>Event</b></td><td><b>Period</b></td><td><b>FacilityType</b></td><td><b>PracticeSetting</b></td><td><b>SourcePatientInfo</b></td><td><b>Related</b></td></tr><tr><td>*</td><td><a>Encounter/xcda</a></td><td>Arm <span>(Details : {http://ihe.net/xds/connectathon/eventCodes code 'T-D8200' = 'T-D8200', given as 'Arm'})</span></td><td>23/12/2004 8:00:00 AM --&gt; 23/12/2004 8:01:00 AM</td><td>Outpatient <span>(Details : {http://www.ihe.net/xds/connectathon/healthcareFacilityTypeCodes code 'Outpatient' = 'Outpatient', given as 'Outpatient'})</span></td><td>General Medicine <span>(Details : {http://www.ihe.net/xds/connectathon/practiceSettingCodes code 'General Medicine' = 'General Medicine', given as 'General Medicine'})</span></td><td><a>Patient/xcda</a></td><td><a>Patient/xcda</a></td></tr></table></div></text><contained><Practitioner><id value="a2"/><name><family value="Smitty"/><given value="Gerald"/></name></Practitioner></contained><masterIdentifier><system value="urn:ietf:rfc:3986"/><value value="pMAKu0NrEXwd8"/></masterIdentifier><identifier><system value="urn:ietf:rfc:3986"/><value value="JHvnIiCuublOJq"/></identifier><status value="current"/><docStatus value="preliminary"/><type><coding><system value="http://loinc.org"/><code value="34108-1"/><display value="hfCbpmQM7hOI"/></coding></type><category><coding><system value="http://ihe.net/xds/connectathon/classCodes"/><code value="History and Physical"/><display value="zSc36yRqzstfgPKi"/></coding></category><subject><reference value="Patient/xcda"/></subject><date value="2005-12-24T09:43:41+11:00"/><author><reference value="Practitioner/xcda1"/></author><author><reference value="#a2"/></author><authenticator><reference value="Organization/f001"/></authenticator><custodian><reference value="Organization/f001"/></custodian><relatesTo><code value="appends"/><target><reference value="DocumentReference/example"/></target></relatesTo><description value="Physical"/><securityLabel><coding><system value="http://terminology.hl7.org/CodeSystem/v3-Confidentiality"/><code value="V"/><display value="h3Xuyqo1EIrIVCrmX"/></coding></securityLabel><content><attachment><contentType value="application/hl7-v3+xml"/><language value="en-US"/><url value="http://example.org/xds/mhd/Binary/07a6483f-732b-461e-86b6-edb665c45510"/><size value="3654"/><hash value="2jmj7l5rSw0yVb/vlWAYkK/YBwk="/><title value="Physical"/><creation value="2005-12-24T09:35:00+11:00"/></attachment><format><system value="urn:oid:1.3.6.1.4.1.19376.1.2.3"/><code value="urn:ihe:pcc:handp:2008"/><display value="OIqiYZvCZqU"/></format></content><context><encounter><reference value="Encounter/xcda"/></encounter><event><coding><system value="http://ihe.net/xds/connectathon/eventCodes"/><code value="T-D8200"/><display value="hzlN4AsSMmrg"/></coding></event><period><start value="2004-12-23T08:00:00+11:00"/><end value="2004-12-23T08:01:00+11:00"/></period><facilityType><coding><system value="http://www.ihe.net/xds/connectathon/healthcareFacilityTypeCodes"/><code value="Outpatient"/><display value="qwaQiyUfjYJ0E0Sz"/></coding></facilityType><practiceSetting><coding><system value="http://www.ihe.net/xds/connectathon/practiceSettingCodes"/><code value="General Medicine"/><display value="w2k8AeWdk8XtZFVS"/></coding></practiceSetting><sourcePatientInfo><reference value="Patient/xcda"/></sourcePatientInfo><related><reference value="Patient/xcda"/><identifier><system value="urn:ietf:rfc:3986"/><value value="tP9fWuuHUptg"/></identifier></related></context></DocumentReference>