<?xml version="1.0" encoding="UTF-8"?><DocumentManifest xmlns="http://hl7.org/fhir"><id value="example"/><meta><tag><system value="http://terminology.hl7.org/CodeSystem/v3-ActReason"/><code value="HTEST"/><display value="pK4IOCTXj8zec"/></tag></meta><text><status value="generated"/><div xmlns="http://www.w3.org/1999/xhtml">Text</div></text><contained><Practitioner><id value="a1"/><name><family value="Dopplemeyer"/><given value="Sherry"/></name><telecom><system value="email"/><value value="SFbRsJkouplQ00a"/></telecom></Practitioner></contained><masterIdentifier><system value="http://example.org/documents"/><value value="mDgYJgmxjeuxk"/></masterIdentifier><identifier><system value="http://example.org/documents"/><value value="j0BHFrzLOUjHES"/></identifier><status value="current"/><type><text value="SMpDc21rIn"/></type><subject><reference value="Patient/xcda"/></subject><created value="2004-12-25T23:50:50-05:00"/><author><reference value="#a1"/></author><recipient><reference value="Practitioner/xcda1"/></recipient><source value="urn:oid:1.3.6.1.4.1.21367.2009.1.2.1"/><description value="Physical"/><content><reference value="DocumentReference/example"/></content><related><identifier><system value="http://example.org/documents"/><value value="uWdNRwOWmF"/></identifier><ref><reference value="DocumentReference/example"/></ref></related></DocumentManifest>