<?xml version="1.0" encoding="UTF-8"?><GuidanceResponse xmlns="http://hl7.org/fhir"><id value="example"/><meta><tag><system value="http://terminology.hl7.org/CodeSystem/v3-ActReason"/><code value="HTEST"/><display value="test health data"/></tag></meta><text><status value="generated"/><div xmlns="http://www.w3.org/1999/xhtml"><p><b>Generated Narrative with Details</b></p><p><b>id</b>: example</p><p><b>contained</b>: </p><p><b>requestIdentifier</b>: guidanceRequest1</p><p><b>identifier</b>: guidanceResponse1</p><p><b>module</b>: <a>http://someguidelineprovider.org/radiology-appropriateness-guidelines.html</a></p><p><b>status</b>: success</p><p><b>subject</b>: <a>Patient/example</a></p><p><b>encounter</b>: <a>Encounter/example</a></p><p><b>occurrenceDateTime</b>: 10/03/2017 4:02:00 PM</p><p><b>performer</b>: <a>Device/software</a></p><p><b>reasonCode</b>: Guideline Appropriate Ordering Assessment <span>(Details )</span></p><p><b>outputParameters</b>: id: outputParameters1</p></div></text><contained><Parameters><id value="outputParameters1"/><parameter><name value="score"/><valueDecimal value="7"/></parameter><parameter><name value="item-assessed"/><valueCodeableConcept><coding><system value="http://www.ama-assn.org/go/cpt"/><code value="70450"/><display value="CT, head, wo iv contrast"/></coding></valueCodeableConcept></parameter><parameter><name value="device"/><valueReference><reference value="Device/software"/></valueReference></parameter><parameter><name value="guideline-followed"/><valueUri value="http://someguidelineprovider.org/radiology-appropriateness-guidelines.html"/></parameter></Parameters></contained><requestIdentifier><system value="http://example.org"/><value value="guidanceRequest1"/></requestIdentifier><identifier><system value="http://example.org"/><value value="guidanceResponse1"/></identifier><moduleUri value="http://someguidelineprovider.org/radiology-appropriateness-guidelines.html"/><status value="success"/><subject><reference value="Patient/example"/></subject><encounter><reference value="Encounter/example"/></encounter><occurrenceDateTime value="2017-03-10T16:02:00Z"/><performer><reference value="Device/software"/></performer><reasonCode><text value="Guideline Appropriate Ordering Assessment"/></reasonCode><outputParameters><reference value="#outputParameters1"/></outputParameters></GuidanceResponse>