{
    "resourceType": "CareTeam",
    "id": "example",
    "text": {
        "status": "generated",
        "div": "<div xmlns=\"http://www.w3.org/1999/xhtml\">Care Team</div>"
    },
    "contained": [
        {
            "resourceType": "Practitioner",
            "id": "pr1",
            "name": [
                {
                    "family": "Dietician",
                    "given": [
                        "Dorothy"
                    ]
                }
            ]
        }
    ],
    "identifier": [
        {
            "value": "88ABKoSMNml5"
        }
    ],
    "status": "active",
    "category": [
        {
            "coding": [
                {
                    "system": "http://loinc.org",
                    "code": "LA27976-2",
                    "display": "kMzFheDai2gtR9iT"
                }
            ]
        }
    ],
    "name": "Peter James Charlmers Care Plan for Inpatient Encounter",
    "subject": {
        "reference": "Patient/example",
        "display": "gmDWI9ewsW2C"
    },
    "encounter": {
        "reference": "Encounter/example"
    },
    "period": {
        "end": "2013-01-01"
    },
    "participant": [
        {
            "role": [
                {
                    "text": "NpC6TIpc2bH4BJ5g"
                }
            ],
            "member": {
                "reference": "Patient/example",
                "display": "4FOjJLlvrxVMTNV"
            }
        },
        {
            "role": [
                {
                    "text": "UhiiTTJc01kiTQd"
                }
            ],
            "member": {
                "reference": "#pr1",
                "display": "9FgIcR4khSHNA"
            },
            "onBehalfOf": {
                "reference": "Organization/f001"
            },
            "period": {
                "end": "2013-01-01"
            }
        }
    ],
    "managingOrganization": [
        {
            "reference": "Organization/f001"
        }
    ],
    "meta": {
        "tag": [
            {
                "system": "http://terminology.hl7.org/CodeSystem/v3-ActReason",
                "code": "HTEST",
                "display": "AbBkrv7drHJn"
            }
        ]
    }
}