{
    "resourceType": "CarePlan",
    "id": "example",
    "text": {
        "status": "additional",
        "div": "<div xmlns=\"http://www.w3.org/1999/xhtml\">\n      <p> A simple care plan to indicate a patient taking their weight once a day because of obesity.</p>\n    </div>"
    },
    "contained": [
        {
            "resourceType": "Condition",
            "id": "p1",
            "clinicalStatus": {
                "coding": [
                    {
                        "system": "http://terminology.hl7.org/CodeSystem/condition-clinical",
                        "code": "active"
                    }
                ]
            },
            "verificationStatus": {
                "coding": [
                    {
                        "system": "http://terminology.hl7.org/CodeSystem/condition-ver-status",
                        "code": "confirmed"
                    }
                ]
            },
            "code": {
                "text": "lajjdusoQ"
            },
            "subject": {
                "reference": "Patient/example",
                "display": "8L0WmURHjAKyegBx"
            }
        }
    ],
    "identifier": [
        {
            "value": "Zzu4UZtyogETs"
        }
    ],
    "instantiatesUri": [
        "http://example.org/protocol-for-obesity"
    ],
    "basedOn": [
        {
            "display": "K88uWW6XnfWL7k"
        }
    ],
    "replaces": [
        {
            "display": "AKyLLhNDBHcsv"
        }
    ],
    "partOf": [
        {
            "display": "eMEPxSSB3Drma"
        }
    ],
    "status": "active",
    "intent": "plan",
    "category": [
        {
            "text": "LBaqL2hdxHn0P8JsR"
        }
    ],
    "description": "Manage obesity and weight loss",
    "subject": {
        "reference": "Patient/example",
        "display": "uLZQtVR1uh09NmF"
    },
    "encounter": {
        "reference": "Encounter/home"
    },
    "period": {
        "end": "2017-06-01"
    },
    "created": "2016-01-01",
    "author": {
        "reference": "Practitioner/example",
        "display": "0einMcTp3twF4o"
    },
    "careTeam": [
        {
            "reference": "CareTeam/example"
        }
    ],
    "addresses": [
        {
            "reference": "#p1",
            "display": "rEWeUYpPY7Ckjr"
        }
    ],
    "goal": [
        {
            "reference": "Goal/example"
        }
    ],
    "activity": [
        {
            "outcomeCodeableConcept": [
                {
                    "coding": [
                        {
                            "system": "http://snomed.info/sct",
                            "code": "161832001",
                            "display": "gGekP3XZyj7lE"
                        }
                    ]
                }
            ],
            "outcomeReference": [
                {
                    "reference": "Observation/example",
                    "display": "yX5f5X4k0umiuhS"
                }
            ],
            "detail": {
                "code": {
                    "coding": [
                        {
                            "system": "http://loinc.org",
                            "code": "3141-9",
                            "display": "dfKMfr7I0kwMaBkFy"
                        },
                        {
                            "system": "http://snomed.info/sct",
                            "code": "27113001",
                            "display": "YXxcjduiAeVkm"
                        }
                    ]
                },
                "status": "completed",
                "statusReason": {
                    "text": "RJwvNIHtgZSY"
                },
                "doNotPerform": false,
                "scheduledTiming": {
                    "repeat": {
                        "frequency": 1,
                        "period": 1,
                        "periodUnit": "d"
                    }
                },
                "location": {
                    "display": "Q0L5b1mVYL9eKF4r"
                },
                "performer": [
                    {
                        "reference": "Patient/example",
                        "display": "8WDaf6cyhxTv7i"
                    }
                ]
            }
        }
    ],
    "meta": {
        "tag": [
            {
                "system": "http://terminology.hl7.org/CodeSystem/v3-ActReason",
                "code": "HTEST",
                "display": "AKsVBgWf8yoKpY"
            }
        ]
    }
}