{
    "resourceType": "DocumentManifest",
    "id": "example",
    "text": {
        "status": "generated",
        "div": "<div xmlns=\"http://www.w3.org/1999/xhtml\">Text</div>"
    },
    "contained": [
        {
            "resourceType": "Practitioner",
            "id": "a1",
            "name": [
                {
                    "family": "Dopplemeyer",
                    "given": [
                        "Sherry"
                    ]
                }
            ],
            "telecom": [
                {
                    "system": "email",
                    "value": "SFbRsJkouplQ00a"
                }
            ]
        }
    ],
    "masterIdentifier": {
        "system": "http://example.org/documents",
        "value": "mDgYJgmxjeuxk"
    },
    "identifier": [
        {
            "system": "http://example.org/documents",
            "value": "j0BHFrzLOUjHES"
        }
    ],
    "status": "current",
    "type": {
        "text": "SMpDc21rIn"
    },
    "subject": {
        "reference": "Patient/xcda"
    },
    "created": "2004-12-25T23:50:50-05:00",
    "author": [
        {
            "reference": "#a1"
        }
    ],
    "recipient": [
        {
            "reference": "Practitioner/xcda1"
        }
    ],
    "source": "urn:oid:1.3.6.1.4.1.21367.2009.1.2.1",
    "description": "Physical",
    "content": [
        {
            "reference": "DocumentReference/example"
        }
    ],
    "related": [
        {
            "identifier": {
                "system": "http://example.org/documents",
                "value": "uWdNRwOWmF"
            },
            "ref": {
                "reference": "DocumentReference/example"
            }
        }
    ],
    "meta": {
        "tag": [
            {
                "system": "http://terminology.hl7.org/CodeSystem/v3-ActReason",
                "code": "HTEST",
                "display": "pK4IOCTXj8zec"
            }
        ]
    }
}